{"resourceType":"Bundle","id":"TaskBundleForCommunicationRequest-example-01","meta":{"versionId":"1","lastUpdated":"2023-09-07T15:32:26.605+05:30","profile":["https://nrces.in/ndhm/fhir/r4/StructureDefinition/TaskBundle"],"security":[{"system":"http://terminology.hl7.org/CodeSystem/v3-Confidentiality","code":"V","display":"very restricted"}]},"identifier":{"system":"http://hip.in","value":"bc3c6c57-2053-4d0e-ac40-139ccccff645"},"type":"collection","timestamp":"2023-09-07T15:32:26.605+05:30","entry":[{"fullUrl":"Task/Task-example-01","resource":{"resourceType":"Task","id":"Task-example-01","meta":{"profile":["https://nrces.in/ndhm/fhir/r4/StructureDefinition/Task"]},"text":{"status":"generated","div":"<div xmlns=\"http://www.w3.org/1999/xhtml\"><p><b>Generated Narrative: Task</b><a name=\"Task-example-01\"> </a></p><div style=\"display: inline-block; background-color: #d9e0e7; padding: 6px; margin: 4px; border: 1px solid #8da1b4; border-radius: 5px; line-height: 60%\"><p style=\"margin-bottom: 0px\">Resource Task &quot;Task-example-01&quot; </p><p style=\"margin-bottom: 0px\">Profile: <a href=\"StructureDefinition-Task.html\">Task</a></p></div><p><b>status</b>: requested</p><p><b>intent</b>: order</p><p><b>code</b>: Poll <span style=\"background: LightGoldenRodYellow; margin: 4px; border: 1px solid khaki\"> (<a href=\"http://terminology.hl7.org/5.3.0/CodeSystem-financialtaskcode.html\">Financial Task Codes</a>#poll)</span></p><p><b>description</b>: Please Provide the diagnosis report of the Patient for identifying the disease</p><p><b>authoredOn</b>: 2023-12-08 08:25:05+1000</p><p><b>requester</b>: <a href=\"#Organization_Organization-example-01\">See above (Organization/Organization-example-01)</a></p><p><b>owner</b>: <a href=\"#Organization_Organization-example-02\">See above (Organization/Organization-example-02)</a></p><h3>Inputs</h3><table class=\"grid\"><tr><td style=\"display: none\">-</td><td><b>Type</b></td><td><b>Value[x]</b></td></tr><tr><td style=\"display: none\">*</td><td>Include <span style=\"background: LightGoldenRodYellow; margin: 4px; border: 1px solid khaki\"> (<a href=\"http://terminology.hl7.org/5.3.0/CodeSystem-financialtaskinputtype.html\">Financial Task Input Type Codes</a>#include)</span></td><td><a href=\"#CommunicationRequest_CommunicationRequest-example-01\">See above (CommunicationRequest/CommunicationRequest-example-01)</a></td></tr></table></div>"},"status":"requested","intent":"order","code":{"coding":[{"system":"http://terminology.hl7.org/CodeSystem/financialtaskcode","code":"poll"}]},"description":"Please Provide the diagnosis report of the Patient for identifying the disease","authoredOn":"2023-12-08T08:25:05+10:00","requester":{"reference":"Organization/Organization-example-01"},"owner":{"reference":"Organization/Organization-example-02"},"input":[{"type":{"coding":[{"system":"http://terminology.hl7.org/CodeSystem/financialtaskinputtype","code":"include"}]},"valueReference":{"reference":"CommunicationRequest/CommunicationRequest-example-01"}}]}},{"fullUrl":"CommunicationRequest/CommunicationRequest-example-01","resource":{"resourceType":"CommunicationRequest","id":"CommunicationRequest-example-01","meta":{"versionId":"1","lastUpdated":"2023-09-07T14:58:58.181+05:30","profile":["https://nrces.in/ndhm/fhir/r4/StructureDefinition/CommunicationRequest"]},"text":{"status":"generated","div":"<div xmlns=\"http://www.w3.org/1999/xhtml\"><p><b>Generated Narrative: CommunicationRequest</b><a name=\"CommunicationRequest-example-01\"> </a></p><div style=\"display: inline-block; background-color: #d9e0e7; padding: 6px; margin: 4px; border: 1px solid #8da1b4; border-radius: 5px; line-height: 60%\"><p style=\"margin-bottom: 0px\">Resource CommunicationRequest &quot;CommunicationRequest-example-01&quot; Version &quot;1&quot; Updated &quot;2023-09-07 14:58:58+0530&quot; </p><p style=\"margin-bottom: 0px\">Profile: <a href=\"StructureDefinition-CommunicationRequest.html\">CommunicationRequest</a></p></div><p><b>identifier</b>: id:\u00a04524657454</p><p><b>basedOn</b>: <a href=\"#Claim_Claim-preauth-example-01\">See above (Claim/Claim-preauth-example-01)</a></p><p><b>status</b>: active</p><p><b>category</b>: Alert <span style=\"background: LightGoldenRodYellow; margin: 4px; border: 1px solid khaki\"> (<a href=\"http://terminology.hl7.org/5.3.0/CodeSystem-communication-category.html\">CommunicationCategory</a>#alert)</span></p><p><b>priority</b>: routine</p><h3>Payloads</h3><table class=\"grid\"><tr><td style=\"display: none\">-</td><td><b>Content[x]</b></td></tr><tr><td style=\"display: none\">*</td><td>Please provide the Angeography report to support your Claim# DEF5647.</td></tr></table><p><b>authoredOn</b>: 2023-12-08 08:25:05+1000</p><p><b>requester</b>: <a href=\"#Organization_Organization-example-01\">See above (Organization/Organization-example-01)</a></p><p><b>recipient</b>: <a href=\"#Organization_Organization-example-02\">See above (Organization/Organization-example-02)</a></p><p><b>sender</b>: <a href=\"#Organization_Organization-example-01\">See above (Organization/Organization-example-01)</a></p></div>"},"identifier":[{"system":"http://irdai.in","value":"4524657454"}],"basedOn":[{"reference":"Claim/Claim-preauth-example-01"}],"status":"active","category":[{"coding":[{"system":"http://terminology.hl7.org/CodeSystem/communication-category","code":"alert"}]}],"priority":"routine","payload":[{"contentString":"Please provide the Angeography report to support your Claim# DEF5647."}],"authoredOn":"2023-12-08T08:25:05+10:00","requester":{"reference":"Organization/Organization-example-01"},"recipient":[{"reference":"Organization/Organization-example-02"}],"sender":{"reference":"Organization/Organization-example-01"}}},{"fullUrl":"Claim/Claim-preauth-example-01","resource":{"resourceType":"Claim","id":"Claim-preauth-example-01","meta":{"profile":["https://nrces.in/ndhm/fhir/r4/StructureDefinition/Claim"]},"text":{"status":"generated","div":"<div xmlns=\"http://www.w3.org/1999/xhtml\"><p><b>Generated Narrative: Claim</b><a name=\"Claim-preauth-example-01\"> </a></p><div style=\"display: inline-block; background-color: #d9e0e7; padding: 6px; margin: 4px; border: 1px solid #8da1b4; border-radius: 5px; line-height: 60%\"><p style=\"margin-bottom: 0px\">Resource Claim &quot;Claim-preauth-example-01&quot; </p><p style=\"margin-bottom: 0px\">Profile: <a href=\"StructureDefinition-Claim.html\">Claim</a></p></div><p><b>identifier</b>: id:\u00a07612345</p><p><b>status</b>: active</p><p><b>type</b>: Inpatient care management (procedure) <span style=\"background: LightGoldenRodYellow; margin: 4px; border: 1px solid khaki\"> (<a href=\"https://browser.ihtsdotools.org/\">SNOMED CT</a>#737481003)</span></p><p><b>subType</b>: Emergency Claim <span style=\"background: LightGoldenRodYellow; margin: 4px; border: 1px solid khaki\"> (<a href=\"http://terminology.hl7.org/5.3.0/CodeSystem-ex-claimsubtype.html\">Example Claim SubType Codes</a>#emergency)</span></p><p><b>use</b>: preauthorization</p><p><b>patient</b>: <a href=\"#Patient_Patient-example-01\">See above (Patient/Patient-example-01)</a></p><p><b>billablePeriod</b>: 2023-12-09 11:01:00+0500 --&gt; 2023-12-30 11:01:00+0500</p><p><b>created</b>: 2023-12-11 11:01:00+0500</p><p><b>insurer</b>: <a href=\"#Organization_Organization-example-01\">See above (Organization/Organization-example-01)</a></p><p><b>provider</b>: <a href=\"#Organization_Organization-example-02\">See above (Organization/Organization-example-02)</a></p><p><b>priority</b>: Normal <span style=\"background: LightGoldenRodYellow; margin: 4px; border: 1px solid khaki\"> (<a href=\"http://terminology.hl7.org/5.3.0/CodeSystem-processpriority.html\">Process Priority Codes</a>#normal)</span></p><p><b>prescription</b>: <a href=\"#MedicationRequest_MedicationRequest-example-01\">See above (MedicationRequest/MedicationRequest-example-01)</a></p><h3>CareTeams</h3><table class=\"grid\"><tr><td style=\"display: none\">-</td><td><b>Sequence</b></td><td><b>Provider</b></td><td><b>Role</b></td><td><b>Qualification</b></td></tr><tr><td style=\"display: none\">*</td><td>1</td><td><a href=\"#Practitioner_Practitioner-example-01\">See above (Practitioner/Practitioner-example-01)</a></td><td>Healthcare professional (occupation) <span style=\"background: LightGoldenRodYellow; margin: 4px; border: 1px solid khaki\"> (<a href=\"https://browser.ihtsdotools.org/\">SNOMED CT</a>#223366009)</span></td><td>Clinical specialty (qualifier value) <span style=\"background: LightGoldenRodYellow; margin: 4px; border: 1px solid khaki\"> (<a href=\"https://browser.ihtsdotools.org/\">SNOMED CT</a>#394658006)</span></td></tr></table><h3>Diagnoses</h3><table class=\"grid\"><tr><td style=\"display: none\">-</td><td><b>Sequence</b></td><td><b>Diagnosis[x]</b></td><td><b>Type</b></td></tr><tr><td style=\"display: none\">*</td><td>1</td><td>Cardiac arrest, unspecified <span style=\"background: LightGoldenRodYellow; margin: 4px; border: 1px solid khaki\"> (<a href=\"http://terminology.hl7.org/5.3.0/CodeSystem-icd10.html\">ICD-10</a>#I46.9)</span></td><td>Final diagnosis (discharge) (contextual qualifier) (qualifier value) <span style=\"background: LightGoldenRodYellow; margin: 4px; border: 1px solid khaki\"> (<a href=\"https://browser.ihtsdotools.org/\">SNOMED CT</a>#89100005)</span></td></tr></table><blockquote><p><b>procedure</b></p><p><b>sequence</b>: 1</p><p><b>procedure</b>: Angiography <span style=\"background: LightGoldenRodYellow; margin: 4px; border: 1px solid khaki\"> (<a href=\"https://browser.ihtsdotools.org/\">SNOMED CT</a>#77343006)</span></p></blockquote><blockquote><p><b>procedure</b></p><p><b>sequence</b>: 2</p><p><b>procedure</b>: Angioplasty of blood vessel <span style=\"background: LightGoldenRodYellow; margin: 4px; border: 1px solid khaki\"> (<a href=\"https://browser.ihtsdotools.org/\">SNOMED CT</a>#418285008)</span></p></blockquote><h3>Insurances</h3><table class=\"grid\"><tr><td style=\"display: none\">-</td><td><b>Sequence</b></td><td><b>Focal</b></td><td><b>Coverage</b></td><td><b>PreAuthRef</b></td></tr><tr><td style=\"display: none\">*</td><td>1</td><td>true</td><td><a href=\"#Coverage_Coverage-example-01\">See above (Coverage/Coverage-example-01)</a></td><td>123456</td></tr></table><blockquote><p><b>item</b></p><p><b>sequence</b>: 1</p><p><b>careTeamSequence</b>: 1</p><p><b>productOrService</b>: Angiography <span style=\"background: LightGoldenRodYellow; margin: 4px; border: 1px solid khaki\"> (<a href=\"https://browser.ihtsdotools.org/\">SNOMED CT</a>#77343006)</span></p><p><b>serviced</b>: 2023-12-09</p><h3>UnitPrices</h3><table class=\"grid\"><tr><td style=\"display: none\">-</td><td><b>Value</b></td><td><b>Currency</b></td></tr><tr><td style=\"display: none\">*</td><td>10000.00</td><td>INR</td></tr></table><h3>Nets</h3><table class=\"grid\"><tr><td style=\"display: none\">-</td><td><b>Value</b></td><td><b>Currency</b></td></tr><tr><td style=\"display: none\">*</td><td>10000.00</td><td>INR</td></tr></table></blockquote><blockquote><p><b>item</b></p><p><b>sequence</b>: 2</p><p><b>careTeamSequence</b>: 1</p><p><b>productOrService</b>: Angioplasty of blood vessel <span style=\"background: LightGoldenRodYellow; margin: 4px; border: 1px solid khaki\"> (<a href=\"https://browser.ihtsdotools.org/\">SNOMED CT</a>#418285008)</span></p><h3>UnitPrices</h3><table class=\"grid\"><tr><td style=\"display: none\">-</td><td><b>Value</b></td><td><b>Currency</b></td></tr><tr><td style=\"display: none\">*</td><td>40000</td><td>INR</td></tr></table><h3>Nets</h3><table class=\"grid\"><tr><td style=\"display: none\">-</td><td><b>Value</b></td><td><b>Currency</b></td></tr><tr><td style=\"display: none\">*</td><td>40000</td><td>INR</td></tr></table></blockquote><blockquote><p><b>item</b></p><p><b>sequence</b>: 3</p><p><b>careTeamSequence</b>: 1</p><p><b>productOrService</b>: Intensive care unit <span style=\"background: LightGoldenRodYellow; margin: 4px; border: 1px solid khaki\"> (<a href=\"https://browser.ihtsdotools.org/\">SNOMED CT</a>#309904001)</span></p><p><b>serviced</b>: 2023-12-11</p><p><b>quantity</b>: 10 day</p><h3>UnitPrices</h3><table class=\"grid\"><tr><td style=\"display: none\">-</td><td><b>Value</b></td><td><b>Currency</b></td></tr><tr><td style=\"display: none\">*</td><td>2000</td><td>INR</td></tr></table><h3>Nets</h3><table class=\"grid\"><tr><td style=\"display: none\">-</td><td><b>Value</b></td><td><b>Currency</b></td></tr><tr><td style=\"display: none\">*</td><td>20000</td><td>INR</td></tr></table></blockquote><blockquote><p><b>item</b></p><p><b>sequence</b>: 4</p><p><b>careTeamSequence</b>: 1</p><p><b>productOrService</b>: Aspirin 75 mg oral tablet <span style=\"background: LightGoldenRodYellow; margin: 4px; border: 1px solid khaki\"> (<a href=\"https://browser.ihtsdotools.org/\">SNOMED CT</a>#319775004)</span></p><h3>UnitPrices</h3><table class=\"grid\"><tr><td style=\"display: none\">-</td><td><b>Value</b></td><td><b>Currency</b></td></tr><tr><td style=\"display: none\">*</td><td>100</td><td>INR</td></tr></table><h3>Nets</h3><table class=\"grid\"><tr><td style=\"display: none\">-</td><td><b>Value</b></td><td><b>Currency</b></td></tr><tr><td style=\"display: none\">*</td><td>100</td><td>INR</td></tr></table></blockquote><h3>Totals</h3><table class=\"grid\"><tr><td style=\"display: none\">-</td><td><b>Value</b></td><td><b>Currency</b></td></tr><tr><td style=\"display: none\">*</td><td>70100</td><td>INR</td></tr></table></div>"},"identifier":[{"system":"https://irdai.gov.in","value":"7612345"}],"status":"active","type":{"coding":[{"system":"http://snomed.info/sct","code":"737481003","display":"Inpatient care management (procedure)"}]},"subType":{"coding":[{"system":"http://terminology.hl7.org/CodeSystem/ex-claimsubtype","code":"emergency"}]},"use":"preauthorization","patient":{"reference":"Patient/Patient-example-01"},"billablePeriod":{"start":"2023-12-09T11:01:00+05:00","end":"2023-12-30T11:01:00+05:00"},"created":"2023-12-11T11:01:00+05:00","insurer":{"reference":"Organization/Organization-example-01"},"provider":{"reference":"Organization/Organization-example-02"},"priority":{"coding":[{"system":"http://terminology.hl7.org/CodeSystem/processpriority","code":"normal"}]},"prescription":{"reference":"MedicationRequest/MedicationRequest-example-01"},"careTeam":[{"sequence":1,"provider":{"reference":"Practitioner/Practitioner-example-01"},"role":{"coding":[{"system":"http://snomed.info/sct","code":"223366009","display":"Healthcare professional (occupation)"}]},"qualification":{"coding":[{"system":"http://snomed.info/sct","code":"394658006","display":"Clinical specialty (qualifier value)"}]}}],"diagnosis":[{"sequence":1,"diagnosisCodeableConcept":{"coding":[{"system":"http://hl7.org/fhir/sid/icd-10","code":"I46.9","display":"Cardiac arrest, unspecified"}]},"type":[{"coding":[{"system":"http://snomed.info/sct","code":"89100005","display":"Final diagnosis (discharge) (contextual qualifier) (qualifier value)"}]}]}],"procedure":[{"sequence":1,"procedureCodeableConcept":{"coding":[{"system":"http://snomed.info/sct","code":"77343006","display":"Angiography"}]}},{"sequence":2,"procedureCodeableConcept":{"coding":[{"system":"http://snomed.info/sct","code":"418285008","display":"Angioplasty of blood vessel"}]}}],"insurance":[{"sequence":1,"focal":true,"coverage":{"reference":"Coverage/Coverage-example-01"},"preAuthRef":["123456"]}],"item":[{"sequence":1,"careTeamSequence":[1],"productOrService":{"coding":[{"system":"http://snomed.info/sct","code":"77343006","display":"Angiography"}]},"servicedDate":"2023-12-09","unitPrice":{"value":10000.00,"currency":"INR"},"net":{"value":10000.00,"currency":"INR"}},{"sequence":2,"careTeamSequence":[1],"productOrService":{"coding":[{"system":"http://snomed.info/sct","code":"418285008","display":"Angioplasty of blood vessel"}]},"unitPrice":{"value":40000,"currency":"INR"},"net":{"value":40000,"currency":"INR"}},{"sequence":3,"careTeamSequence":[1],"productOrService":{"coding":[{"system":"http://snomed.info/sct","code":"309904001","display":"Intensive care unit"}]},"servicedDate":"2023-12-11","quantity":{"value":10,"unit":"day"},"unitPrice":{"value":2000,"currency":"INR"},"net":{"value":20000,"currency":"INR"}},{"sequence":4,"careTeamSequence":[1],"productOrService":{"coding":[{"system":"http://snomed.info/sct","code":"319775004","display":"Aspirin 75 mg oral tablet"}]},"unitPrice":{"value":100,"currency":"INR"},"net":{"value":100,"currency":"INR"}}],"total":{"value":70100,"currency":"INR"}}},{"fullUrl":"Patient/Patient-example-01","resource":{"resourceType":"Patient","id":"Patient-example-01","meta":{"versionId":"1","lastUpdated":"2023-09-07T14:58:58.181+05:30","profile":["https://nrces.in/ndhm/fhir/r4/StructureDefinition/Patient"]},"text":{"status":"generated","div":"<div xmlns=\"http://www.w3.org/1999/xhtml\"><p><b>Generated Narrative: Patient</b><a name=\"Patient-example-01\"> </a></p><div style=\"display: inline-block; background-color: #d9e0e7; padding: 6px; margin: 4px; border: 1px solid #8da1b4; border-radius: 5px; line-height: 60%\"><p style=\"margin-bottom: 0px\">Resource Patient &quot;Patient-example-01&quot; Version &quot;1&quot; Updated &quot;2023-09-07 14:58:58+0530&quot; </p><p style=\"margin-bottom: 0px\">Profile: <a href=\"StructureDefinition-Patient.html\">Patient</a></p></div><p><b>identifier</b>: Adhaar number: 7225-4829-5255</p><p><b>name</b>: Adarsh Agrawal</p><p><b>telecom</b>: <a href=\"tel:+919818512600\">+919818512600</a></p><p><b>gender</b>: male</p><p><b>birthDate</b>: 1981-01-12</p></div>"},"identifier":[{"type":{"coding":[{"system":"https://nrces.in/ndhm/fhir/r4/CodeSystem/ndhm-identifier-type-code","code":"ADN","display":"Adhaar number"}]},"system":"https://uidai.gov.in/","value":"7225-4829-5255"}],"name":[{"text":"Adarsh Agrawal"}],"telecom":[{"system":"phone","value":"+919818512600","use":"home"}],"gender":"male","birthDate":"1981-01-12"}},{"fullUrl":"Organization/Organization-example-01","resource":{"resourceType":"Organization","id":"Organization-example-01","meta":{"profile":["https://nrces.in/ndhm/fhir/r4/StructureDefinition/Organization"]},"text":{"status":"generated","div":"<div xmlns=\"http://www.w3.org/1999/xhtml\"><p><b>Generated Narrative: Organization</b><a name=\"Organization-example-01\"> </a></p><div style=\"display: inline-block; background-color: #d9e0e7; padding: 6px; margin: 4px; border: 1px solid #8da1b4; border-radius: 5px; line-height: 60%\"><p style=\"margin-bottom: 0px\">Resource Organization &quot;Organization-example-01&quot; </p><p style=\"margin-bottom: 0px\">Profile: <a href=\"StructureDefinition-Organization.html\">Organization</a></p></div><p><b>identifier</b>: Provider number: 4567878</p><p><b>type</b>: Insurance Company <span style=\"background: LightGoldenRodYellow; margin: 4px; border: 1px solid khaki\"> (<a href=\"http://terminology.hl7.org/5.3.0/CodeSystem-organization-type.html\">Organization type</a>#ins)</span></p><p><b>name</b>: XYZ Insurance Co. Ltd.</p><p><b>telecom</b>: <a href=\"tel:+9124326341234\">+91 243 2634 1234</a>, <a href=\"mailto:contact@xyz.org\">contact@xyz.org</a></p></div>"},"identifier":[{"type":{"coding":[{"system":"http://terminology.hl7.org/CodeSystem/v2-0203","code":"PRN","display":"Provider number"}]},"system":"https://facility.ndhm.gov.in","value":"4567878"}],"type":[{"coding":[{"system":"http://terminology.hl7.org/CodeSystem/organization-type","code":"ins","display":"Insurance Company"}]}],"name":"XYZ Insurance Co. Ltd.","telecom":[{"system":"phone","value":"+91 243 2634 1234","use":"work"},{"system":"email","value":"contact@xyz.org","use":"work"}]}},{"fullUrl":"Organization/Organization-example-02","resource":{"resourceType":"Organization","id":"Organization-example-02","meta":{"profile":["https://nrces.in/ndhm/fhir/r4/StructureDefinition/Organization"]},"text":{"status":"generated","div":"<div xmlns=\"http://www.w3.org/1999/xhtml\"><p><b>Generated Narrative: Organization</b><a name=\"Organization-example-02\"> </a></p><div style=\"display: inline-block; background-color: #d9e0e7; padding: 6px; margin: 4px; border: 1px solid #8da1b4; border-radius: 5px; line-height: 60%\"><p style=\"margin-bottom: 0px\">Resource Organization &quot;Organization-example-02&quot; </p><p style=\"margin-bottom: 0px\">Profile: <a href=\"StructureDefinition-Organization.html\">Organization</a></p></div><p><b>identifier</b>: Provider number: 45675454</p><p><b>type</b>: Healthcare Provider <span style=\"background: LightGoldenRodYellow; margin: 4px; border: 1px solid khaki\"> (<a href=\"http://terminology.hl7.org/5.3.0/CodeSystem-organization-type.html\">Organization type</a>#prov)</span></p><p><b>name</b>: XYZ Hospital Co. Ltd.</p><p><b>telecom</b>: <a href=\"tel:+9124326341278\">+91 243 2634 1278</a>, <a href=\"mailto:contact@xyz.org\">contact@xyz.org</a></p></div>"},"identifier":[{"type":{"coding":[{"system":"http://terminology.hl7.org/CodeSystem/v2-0203","code":"PRN","display":"Provider number"}]},"system":"https://facility.ndhm.gov.in","value":"45675454"}],"type":[{"coding":[{"system":"http://terminology.hl7.org/CodeSystem/organization-type","code":"prov","display":"Healthcare Provider"}]}],"name":"XYZ Hospital Co. Ltd.","telecom":[{"system":"phone","value":"+91 243 2634 1278","use":"work"},{"system":"email","value":"contact@xyz.org","use":"work"}]}},{"fullUrl":"MedicationRequest/MedicationRequest-example-01","resource":{"resourceType":"MedicationRequest","id":"MedicationRequest-example-01","meta":{"profile":["https://nrces.in/ndhm/fhir/r4/StructureDefinition/MedicationRequest"]},"text":{"status":"generated","div":"<div xmlns=\"http://www.w3.org/1999/xhtml\"><p><b>Generated Narrative: MedicationRequest</b><a name=\"MedicationRequest-example-01\"> </a></p><div style=\"display: inline-block; background-color: #d9e0e7; padding: 6px; margin: 4px; border: 1px solid #8da1b4; border-radius: 5px; line-height: 60%\"><p style=\"margin-bottom: 0px\">Resource MedicationRequest &quot;MedicationRequest-example-01&quot; </p><p style=\"margin-bottom: 0px\">Profile: <a href=\"StructureDefinition-MedicationRequest.html\">MedicationRequest</a></p></div><p><b>status</b>: active</p><p><b>intent</b>: order</p><p><b>medication</b>: Aspirin 75 mg oral tablet <span style=\"background: LightGoldenRodYellow; margin: 4px; border: 1px solid khaki\"> (<a href=\"https://browser.ihtsdotools.org/\">SNOMED CT</a>#319775004)</span></p><p><b>subject</b>: <a href=\"#Patient_Patient-example-01\">See above (Patient/Patient-example-01)</a></p><p><b>authoredOn</b>: 2023-12-11</p><p><b>requester</b>: <a href=\"#Practitioner_Practitioner-example-01\">See above (Practitioner/Practitioner-example-01)</a></p><p><b>reasonCode</b>: Cardiac arrest <span style=\"background: LightGoldenRodYellow; margin: 4px; border: 1px solid khaki\"> (<a href=\"https://browser.ihtsdotools.org/\">SNOMED CT</a>#410429000)</span></p><p><b>reasonReference</b>: <a href=\"#Condition_Condition-example-01\">See above (Condition/Condition-example-01)</a></p><h3>DosageInstructions</h3><table class=\"grid\"><tr><td style=\"display: none\">-</td><td><b>Text</b></td><td><b>AdditionalInstruction</b></td><td><b>Timing</b></td><td><b>Route</b></td><td><b>Method</b></td></tr><tr><td style=\"display: none\">*</td><td>One tablet at once</td><td>With or after food <span style=\"background: LightGoldenRodYellow; margin: 4px; border: 1px solid khaki\"> (<a href=\"https://browser.ihtsdotools.org/\">SNOMED CT</a>#311504000)</span></td><td>Once per 1 days</td><td>Oral Route <span style=\"background: LightGoldenRodYellow; margin: 4px; border: 1px solid khaki\"> (<a href=\"https://browser.ihtsdotools.org/\">SNOMED CT</a>#26643006)</span></td><td>Swallow <span style=\"background: LightGoldenRodYellow; margin: 4px; border: 1px solid khaki\"> (<a href=\"https://browser.ihtsdotools.org/\">SNOMED CT</a>#421521009)</span></td></tr></table></div>"},"status":"active","intent":"order","medicationCodeableConcept":{"coding":[{"system":"http://snomed.info/sct","code":"319775004","display":"Aspirin 75 mg oral tablet"}]},"subject":{"reference":"Patient/Patient-example-01"},"authoredOn":"2023-12-11","requester":{"reference":"Practitioner/Practitioner-example-01"},"reasonCode":[{"coding":[{"system":"http://snomed.info/sct","code":"410429000","display":"Cardiac arrest"}]}],"reasonReference":[{"reference":"Condition/Condition-example-01"}],"dosageInstruction":[{"text":"One tablet at once","additionalInstruction":[{"coding":[{"system":"http://snomed.info/sct","code":"311504000","display":"With or after food"}]}],"timing":{"repeat":{"frequency":1,"period":1,"periodUnit":"d"}},"route":{"coding":[{"system":"http://snomed.info/sct","code":"26643006","display":"Oral Route"}]},"method":{"coding":[{"system":"http://snomed.info/sct","code":"421521009","display":"Swallow"}]}}]}},{"fullUrl":"Practitioner/Practitioner-example-01","resource":{"resourceType":"Practitioner","id":"Practitioner-example-01","meta":{"versionId":"1","lastUpdated":"2023-09-07T14:58:58.181+05:30","profile":["https://nrces.in/ndhm/fhir/r4/StructureDefinition/Practitioner"]},"text":{"status":"generated","div":"<div xmlns=\"http://www.w3.org/1999/xhtml\"><p><b>Generated Narrative: Practitioner</b><a name=\"Practitioner-example-01\"> </a></p><div style=\"display: inline-block; background-color: #d9e0e7; padding: 6px; margin: 4px; border: 1px solid #8da1b4; border-radius: 5px; line-height: 60%\"><p style=\"margin-bottom: 0px\">Resource Practitioner &quot;Practitioner-example-01&quot; Version &quot;1&quot; Updated &quot;2023-09-07 14:58:58+0530&quot; </p><p style=\"margin-bottom: 0px\">Profile: <a href=\"StructureDefinition-Practitioner.html\">Practitioner</a></p></div><p><b>identifier</b>: Medical License number: 21-1521-3828-3227</p><p><b>name</b>: Dr. Aayush Agrawal</p></div>"},"identifier":[{"type":{"coding":[{"system":"http://terminology.hl7.org/CodeSystem/v2-0203","code":"MD","display":"Medical License number"}]},"system":"https://doctor.ndhm.gov.in","value":"21-1521-3828-3227"}],"name":[{"text":"Dr. Aayush Agrawal"}]}},{"fullUrl":"Coverage/Coverage-example-01","resource":{"resourceType":"Coverage","id":"Coverage-example-01","meta":{"profile":["https://nrces.in/ndhm/fhir/r4/StructureDefinition/Coverage"]},"text":{"status":"generated","div":"<div xmlns=\"http://www.w3.org/1999/xhtml\"><p><b>Generated Narrative: Coverage</b><a name=\"Coverage-example-01\"> </a></p><div style=\"display: inline-block; background-color: #d9e0e7; padding: 6px; margin: 4px; border: 1px solid #8da1b4; border-radius: 5px; line-height: 60%\"><p style=\"margin-bottom: 0px\">Resource Coverage &quot;Coverage-example-01&quot; </p><p style=\"margin-bottom: 0px\">Profile: <a href=\"StructureDefinition-Coverage.html\">Coverage</a></p></div><p><b>identifier</b>: id:\u00a0235037120</p><p><b>status</b>: active</p><p><b>type</b>: PAY <span style=\"background: LightGoldenRodYellow; margin: 4px; border: 1px solid khaki\"> (<a href=\"http://terminology.hl7.org/5.3.0/CodeSystem-coverage-selfpay.html\">Coverage SelfPay Codes</a>#pay)</span></p><p><b>subscriber</b>: <a href=\"#Patient_Patient-example-01\">See above (Patient/Patient-example-01)</a></p><p><b>subscriberId</b>: ABC123456BI007</p><p><b>beneficiary</b>: <a href=\"#Patient_Patient-example-01\">See above (Patient/Patient-example-01)</a></p><p><b>relationship</b>: Self <span style=\"background: LightGoldenRodYellow; margin: 4px; border: 1px solid khaki\"> (<a href=\"http://terminology.hl7.org/5.3.0/CodeSystem-subscriber-relationship.html\">SubscriberPolicyholder Relationship Codes</a>#self)</span></p><p><b>period</b>: ?? --&gt; 2026-03-17</p><p><b>payor</b>: <a href=\"#Organization_Organization-example-01\">See above (Organization/Organization-example-01)</a></p></div>"},"identifier":[{"system":"https://xyzinsurance.in/policynumber/","value":"235037120"}],"status":"active","type":{"coding":[{"system":"http://terminology.hl7.org/CodeSystem/coverage-selfpay","code":"pay","display":"PAY"}]},"subscriber":{"reference":"Patient/Patient-example-01"},"subscriberId":"ABC123456BI007","beneficiary":{"reference":"Patient/Patient-example-01"},"relationship":{"coding":[{"system":"http://terminology.hl7.org/CodeSystem/subscriber-relationship","code":"self"}]},"period":{"end":"2026-03-17"},"payor":[{"reference":"Organization/Organization-example-01"}]}},{"fullUrl":"Condition/Condition-example-01","resource":{"resourceType":"Condition","id":"Condition-example-01","meta":{"profile":["https://nrces.in/ndhm/fhir/r4/StructureDefinition/Condition"]},"text":{"status":"generated","div":"<div xmlns=\"http://www.w3.org/1999/xhtml\"><p><b>Generated Narrative: Condition</b><a name=\"Condition-example-01\"> </a></p><div style=\"display: inline-block; background-color: #d9e0e7; padding: 6px; margin: 4px; border: 1px solid #8da1b4; border-radius: 5px; line-height: 60%\"><p style=\"margin-bottom: 0px\">Resource Condition &quot;Condition-example-01&quot; </p><p style=\"margin-bottom: 0px\">Profile: <a href=\"StructureDefinition-Condition.html\">Condition</a></p></div><p><b>code</b>: Cardiac arrest, unspecified <span style=\"background: LightGoldenRodYellow; margin: 4px; border: 1px solid khaki\"> (<a href=\"http://terminology.hl7.org/5.3.0/CodeSystem-icd10.html\">ICD-10</a>#I46.9)</span></p><p><b>subject</b>: <a href=\"#Patient_Patient-example-01\">See above (Patient/Patient-example-01)</a></p><p><b>onset</b>: 2days</p><p><b>recorder</b>: <a href=\"#Practitioner_Practitioner-example-01\">See above (Practitioner/Practitioner-example-01)</a></p></div>"},"code":{"coding":[{"system":"http://hl7.org/fhir/sid/icd-10","code":"I46.9","display":"Cardiac arrest, unspecified"}]},"subject":{"reference":"Patient/Patient-example-01"},"onsetString":"2days","recorder":{"reference":"Practitioner/Practitioner-example-01"}}}]}